/////////////////////////////////////////////////////////////////////////////////
/// Profile Data Ascii Dump (XRD)                                             ///
/////////////////////////////////////////////////////////////////////////////////

  Group     : Standard
  Data      : 154_FeS
  File Name : 154_FeS.RAW

# Profile Datafile
          comment             = 154_FeS 
          date & time         = 10-11-22 12:09:12 

# Measurement Condition
    X-ray tube
          target              = Co 
          voltage             = 40.0 (kV)
          current             = 30.0 (mA)
    Slits
          divergence slit     = 1.00000 (deg) 
          scatter slit        = 1.00000 (deg) 
          receiving slit      = 0.30000 (mm)  
    Scanning
          drive axis          = Theta-2Theta 
          scan range          =    5.000 -   80.000 
          scan mode           = Continuous Scan 
          scan speed          =   2.0000 (deg/min) 
          sampling pitch      =   0.0200 (deg) 
          preset time         =   0.60 (sec) 

# Data      [ Total No. = 3751 ]
  <2Theta>   <   I   >
     5.0000       160
     5.0200       134
     5.0400       140
     5.0600       134
     5.0800        94
     5.1000       120
     5.1200       100
     5.1400       124
     5.1600       124
     5.1800       130
     5.2000       124
     5.2200       116
     5.2400       124
     5.2600       116
     5.2800       112
     5.3000        98
     5.3200       118
     5.3400       124
     5.3600        90
     5.3800       128
     5.4000       104
     5.4200       112
     5.4400        98
     5.4600       126
     5.4800       114
     5.5000       118
     5.5200       120
     5.5400       102
     5.5600        94
     5.5800       120
     5.6000       106
     5.6200       116
     5.6400       102
     5.6600       112
     5.6800       110
     5.7000       102
     5.7200       116
     5.7400       114
     5.7600       116
     5.7800        94
     5.8000       124
     5.8200       120
     5.8400       116
     5.8600       100
     5.8800       124
     5.9000       116
     5.9200        94
     5.9400       100
     5.9600        98
     5.9800       106
     6.0000       100
     6.0200       104
     6.0400       110
     6.0600       118
     6.0800        92
     6.1000        94
     6.1200        98
     6.1400       104
     6.1600       108
     6.1800        94
     6.2000        98
     6.2200       114
     6.2400        86
     6.2600       110
     6.2800        92
     6.3000       100
     6.3200        92
     6.3400       112
     6.3600        96
     6.3800        98
     6.4000        90
     6.4200        94
     6.4400       122
     6.4600        92
     6.4800        88
     6.5000        84
     6.5200        88
     6.5400       102
     6.5600        96
     6.5800        82
     6.6000       112
     6.6200        94
     6.6400       106
     6.6600        94
     6.6800       108
     6.7000       118
     6.7200        86
     6.7400       104
     6.7600        98
     6.7800        92
     6.8000        90
     6.8200        90
     6.8400       100
     6.8600        76
     6.8800        92
     6.9000        98
     6.9200        90
     6.9400       100
     6.9600       108
     6.9800        96
     7.0000        92
     7.0200        94
     7.0400       100
     7.0600        84
     7.0800        98
     7.1000        90
     7.1200       102
     7.1400        86
     7.1600       106
     7.1800        84
     7.2000       100
     7.2200       100
     7.2400       104
     7.2600       100
     7.2800        92
     7.3000        90
     7.3200        94
     7.3400        96
     7.3600        84
     7.3800       100
     7.4000        86
     7.4200        86
     7.4400        88
     7.4600        80
     7.4800       100
     7.5000        96
     7.5200        94
     7.5400        70
     7.5600        90
     7.5800        94
     7.6000        76
     7.6200        90
     7.6400        86
     7.6600        70
     7.6800        98
     7.7000        88
     7.7200        78
     7.7400       100
     7.7600        84
     7.7800        86
     7.8000        76
     7.8200        80
     7.8400        96
     7.8600        80
     7.8800        86
     7.9000        80
     7.9200       102
     7.9400        96
     7.9600        80
     7.9800        68
     8.0000        92
     8.0200        84
     8.0400        74
     8.0600        84
     8.0800        82
     8.1000        82
     8.1200        84
     8.1400       100
     8.1600        84
     8.1800        64
     8.2000        88
     8.2200        70
     8.2400        86
     8.2600        96
     8.2800        86
     8.3000        86
     8.3200        86
     8.3400        92
     8.3600        88
     8.3800       114
     8.4000        84
     8.4200        62
     8.4400        86
     8.4600        80
     8.4800        84
     8.5000        96
     8.5200        70
     8.5400        98
     8.5600        82
     8.5800        72
     8.6000        84
     8.6200        98
     8.6400        84
     8.6600        82
     8.6800        90
     8.7000        94
     8.7200        88
     8.7400        72
     8.7600        84
     8.7800        82
     8.8000        74
     8.8200        90
     8.8400        90
     8.8600        84
     8.8800        72
     8.9000        86
     8.9200        88
     8.9400       100
     8.9600        90
     8.9800        94
     9.0000        82
     9.0200        72
     9.0400        78
     9.0600        80
     9.0800        76
     9.1000        94
     9.1200        98
     9.1400        82
     9.1600        80
     9.1800        92
     9.2000        86
     9.2200        84
     9.2400        78
     9.2600        92
     9.2800        78
     9.3000        82
     9.3200        76
     9.3400        82
     9.3600        92
     9.3800        86
     9.4000        82
     9.4200        66
     9.4400        78
     9.4600        74
     9.4800        90
     9.5000        92
     9.5200        76
     9.5400        88
     9.5600        74
     9.5800        80
     9.6000        80
     9.6200        78
     9.6400        80
     9.6600        66
     9.6800        92
     9.7000        86
     9.7200        68
     9.7400        78
     9.7600        74
     9.7800        78
     9.8000        74
     9.8200        90
     9.8400        72
     9.8600        72
     9.8800        86
     9.9000        94
     9.9200        88
     9.9400        72
     9.9600        86
     9.9800        70
    10.0000        86
    10.0200        86
    10.0400        78
    10.0600        78
    10.0800        90
    10.1000        84
    10.1200        72
    10.1400        88
    10.1600        76
    10.1800       102
    10.2000        86
    10.2200        68
    10.2400        78
    10.2600        68
    10.2800        84
    10.3000        82
    10.3200        82
    10.3400        82
    10.3600        82
    10.3800        70
    10.4000        68
    10.4200        70
    10.4400        70
    10.4600        68
    10.4800        96
    10.5000        76
    10.5200        78
    10.5400        94
    10.5600        72
    10.5800        74
    10.6000        84
    10.6200        60
    10.6400        86
    10.6600        84
    10.6800        74
    10.7000        82
    10.7200        78
    10.7400        80
    10.7600        78
    10.7800        72
    10.8000        88
    10.8200        80
    10.8400        74
    10.8600        76
    10.8800        90
    10.9000        80
    10.9200        82
    10.9400        58
    10.9600        98
    10.9800        90
    11.0000        86
    11.0200        78
    11.0400        64
    11.0600        72
    11.0800        66
    11.1000        72
    11.1200        88
    11.1400        66
    11.1600        78
    11.1800        86
    11.2000        74
    11.2200        86
    11.2400        70
    11.2600        80
    11.2800        68
    11.3000        68
    11.3200        84
    11.3400        82
    11.3600        74
    11.3800        88
    11.4000        74
    11.4200        84
    11.4400        98
    11.4600        78
    11.4800        90
    11.5000        86
    11.5200        70
    11.5400        86
    11.5600        68
    11.5800        90
    11.6000        74
    11.6200        90
    11.6400        68
    11.6600        84
    11.6800        64
    11.7000        84
    11.7200        78
    11.7400        80
    11.7600       108
    11.7800        82
    11.8000        84
    11.8200        82
    11.8400        68
    11.8600        82
    11.8800        72
    11.9000        78
    11.9200        78
    11.9400        76
    11.9600        90
    11.9800        88
    12.0000        82
    12.0200        88
    12.0400       102
    12.0600        96
    12.0800        78
    12.1000        86
    12.1200        78
    12.1400        78
    12.1600        76
    12.1800        92
    12.2000        88
    12.2200        88
    12.2400        94
    12.2600        94
    12.2800        84
    12.3000        74
    12.3200        92
    12.3400        80
    12.3600        94
    12.3800        88
    12.4000        96
    12.4200        96
    12.4400        94
    12.4600        86
    12.4800        76
    12.5000        80
    12.5200       106
    12.5400        98
    12.5600        82
    12.5800        80
    12.6000        92
    12.6200        80
    12.6400        98
    12.6600        88
    12.6800        72
    12.7000        74
    12.7200        80
    12.7400       132
    12.7600        76
    12.7800        98
    12.8000        90
    12.8200        82
    12.8400        74
    12.8600       100
    12.8800        92
    12.9000        72
    12.9200        90
    12.9400        96
    12.9600       102
    12.9800        80
    13.0000        94
    13.0200        92
    13.0400        76
    13.0600        80
    13.0800        90
    13.1000        78
    13.1200        72
    13.1400        78
    13.1600        80
    13.1800        82
    13.2000       102
    13.2200        78
    13.2400       104
    13.2600        88
    13.2800        96
    13.3000        76
    13.3200        94
    13.3400        78
    13.3600        86
    13.3800        86
    13.4000        76
    13.4200        92
    13.4400        80
    13.4600        76
    13.4800        98
    13.5000       102
    13.5200        74
    13.5400        70
    13.5600        80
    13.5800        76
    13.6000        80
    13.6200        78
    13.6400        78
    13.6600        94
    13.6800       100
    13.7000        94
    13.7200        78
    13.7400        78
    13.7600        80
    13.7800       100
    13.8000        66
    13.8200        80
    13.8400        86
    13.8600        64
    13.8800        94
    13.9000        80
    13.9200        80
    13.9400        80
    13.9600       112
    13.9800        78
    14.0000       102
    14.0200        90
    14.0400        94
    14.0600        86
    14.0800        92
    14.1000        84
    14.1200        98
    14.1400        86
    14.1600       100
    14.1800        88
    14.2000        82
    14.2200        90
    14.2400        98
    14.2600        74
    14.2800        76
    14.3000       102
    14.3200        80
    14.3400        86
    14.3600       106
    14.3800        92
    14.4000        88
    14.4200        74
    14.4400        86
    14.4600        74
    14.4800        94
    14.5000        78
    14.5200        86
    14.5400       102
    14.5600        92
    14.5800       100
    14.6000        96
    14.6200        84
    14.6400       100
    14.6600        90
    14.6800        92
    14.7000        96
    14.7200        94
    14.7400        94
    14.7600        86
    14.7800        82
    14.8000       120
    14.8200        94
    14.8400        82
    14.8600        80
    14.8800        90
    14.9000        86
    14.9200        78
    14.9400        94
    14.9600        84
    14.9800        92
    15.0000        84
    15.0200        92
    15.0400        82
    15.0600        84
    15.0800        94
    15.1000        96
    15.1200        96
    15.1400        90
    15.1600        98
    15.1800        96
    15.2000        90
    15.2200        66
    15.2400        84
    15.2600        84
    15.2800        98
    15.3000        92
    15.3200        86
    15.3400        78
    15.3600       100
    15.3800       108
    15.4000        84
    15.4200        72
    15.4400        74
    15.4600       110
    15.4800        84
    15.5000        84
    15.5200        92
    15.5400        94
    15.5600       104
    15.5800        96
    15.6000        86
    15.6200        98
    15.6400        90
    15.6600        86
    15.6800        82
    15.7000       100
    15.7200       100
    15.7400        90
    15.7600        96
    15.7800        86
    15.8000        88
    15.8200       104
    15.8400        88
    15.8600        94
    15.8800        94
    15.9000        82
    15.9200        78
    15.9400       106
    15.9600        94
    15.9800        84
    16.0000        94
    16.0200        92
    16.0400        98
    16.0600        88
    16.0800        96
    16.1000        92
    16.1200        96
    16.1400       106
    16.1600       104
    16.1800        68
    16.2000        90
    16.2200        74
    16.2400       102
    16.2600       100
    16.2800       110
    16.3000        90
    16.3200        86
    16.3400       108
    16.3600       100
    16.3800        70
    16.4000        78
    16.4200       110
    16.4400        96
    16.4600        88
    16.4800        94
    16.5000        86
    16.5200        92
    16.5400        98
    16.5600        98
    16.5800        98
    16.6000        82
    16.6200        90
    16.6400        84
    16.6600        98
    16.6800        80
    16.7000        86
    16.7200        98
    16.7400        86
    16.7600       102
    16.7800        94
    16.8000        80
    16.8200       108
    16.8400       100
    16.8600        88
    16.8800        92
    16.9000        84
    16.9200        88
    16.9400       110
    16.9600        92
    16.9800        92
    17.0000        80
    17.0200        80
    17.0400       106
    17.0600        96
    17.0800        92
    17.1000        88
    17.1200        90
    17.1400       114
    17.1600        76
    17.1800        92
    17.2000        84
    17.2200        76
    17.2400        86
    17.2600        98
    17.2800        84
    17.3000        88
    17.3200        96
    17.3400       130
    17.3600        90
    17.3800        88
    17.4000        88
    17.4200        94
    17.4400        78
    17.4600       106
    17.4800       102
    17.5000        94
    17.5200        90
    17.5400        98
    17.5600       100
    17.5800        84
    17.6000        92
    17.6200       108
    17.6400        96
    17.6600       104
    17.6800        88
    17.7000        94
    17.7200        86
    17.7400        88
    17.7600        92
    17.7800        98
    17.8000        80
    17.8200       102
    17.8400        90
    17.8600       106
    17.8800        90
    17.9000        90
    17.9200        94
    17.9400       100
    17.9600        90
    17.9800        94
    18.0000       110
    18.0200        84
    18.0400        86
    18.0600        96
    18.0800        98
    18.1000        96
    18.1200       106
    18.1400        76
    18.1600        90
    18.1800        82
    18.2000        90
    18.2200        94
    18.2400        88
    18.2600        96
    18.2800        92
    18.3000        90
    18.3200        82
    18.3400       100
    18.3600        98
    18.3800       104
    18.4000        80
    18.4200       108
    18.4400        96
    18.4600       100
    18.4800        86
    18.5000       102
    18.5200        86
    18.5400        92
    18.5600        94
    18.5800       106
    18.6000       102
    18.6200        76
    18.6400        82
    18.6600        94
    18.6800       100
    18.7000        66
    18.7200        96
    18.7400        86
    18.7600        94
    18.7800        82
    18.8000       106
    18.8200       106
    18.8400        92
    18.8600       108
    18.8800        80
    18.9000        82
    18.9200        76
    18.9400        96
    18.9600        84
    18.9800        94
    19.0000        82
    19.0200       110
    19.0400       100
    19.0600        88
    19.0800        96
    19.1000        80
    19.1200        94
    19.1400        88
    19.1600        84
    19.1800        70
    19.2000        90
    19.2200        98
    19.2400        82
    19.2600        98
    19.2800        86
    19.3000        82
    19.3200        90
    19.3400        86
    19.3600        90
    19.3800        68
    19.4000        80
    19.4200        96
    19.4400        94
    19.4600        94
    19.4800        92
    19.5000        72
    19.5200       104
    19.5400        88
    19.5600       106
    19.5800        74
    19.6000        78
    19.6200        86
    19.6400       102
    19.6600        86
    19.6800       104
    19.7000        98
    19.7200       106
    19.7400        98
    19.7600        92
    19.7800        82
    19.8000        90
    19.8200        94
    19.8400        98
    19.8600        92
    19.8800       110
    19.9000        86
    19.9200        90
    19.9400        96
    19.9600        98
    19.9800        96
    20.0000        78
    20.0200       104
    20.0400       106
    20.0600        88
    20.0800        76
    20.1000       102
    20.1200       120
    20.1400        96
    20.1600       100
    20.1800        96
    20.2000        88
    20.2200       106
    20.2400       104
    20.2600       102
    20.2800        86
    20.3000        78
    20.3200        68
    20.3400        78
    20.3600       100
    20.3800        88
    20.4000        94
    20.4200        98
    20.4400        90
    20.4600        88
    20.4800       100
    20.5000        98
    20.5200        92
    20.5400        68
    20.5600       106
    20.5800        92
    20.6000       100
    20.6200        92
    20.6400        82
    20.6600        80
    20.6800        78
    20.7000        88
    20.7200       104
    20.7400       104
    20.7600        96
    20.7800        84
    20.8000        84
    20.8200        74
    20.8400       104
    20.8600        70
    20.8800        84
    20.9000        88
    20.9200        98
    20.9400        98
    20.9600        92
    20.9800       102
    21.0000        72
    21.0200        94
    21.0400       102
    21.0600        92
    21.0800        90
    21.1000        86
    21.1200        70
    21.1400        88
    21.1600       104
    21.1800        96
    21.2000       102
    21.2200       112
    21.2400        84
    21.2600        88
    21.2800        76
    21.3000        70
    21.3200        92
    21.3400        98
    21.3600        94
    21.3800        82
    21.4000        92
    21.4200        92
    21.4400        98
    21.4600        64
    21.4800        94
    21.5000        86
    21.5200        78
    21.5400        98
    21.5600       104
    21.5800        74
    21.6000       108
    21.6200        96
    21.6400        96
    21.6600        76
    21.6800        80
    21.7000        72
    21.7200        92
    21.7400        94
    21.7600       104
    21.7800       110
    21.8000        90
    21.8200        96
    21.8400        74
    21.8600        76
    21.8800        74
    21.9000       106
    21.9200        82
    21.9400        92
    21.9600        84
    21.9800        90
    22.0000        72
    22.0200        92
    22.0400        88
    22.0600       104
    22.0800        84
    22.1000        82
    22.1200        76
    22.1400        84
    22.1600        94
    22.1800        98
    22.2000        94
    22.2200       102
    22.2400        82
    22.2600        94
    22.2800        74
    22.3000       100
    22.3200       100
    22.3400        82
    22.3600       120
    22.3800        84
    22.4000        88
    22.4200        72
    22.4400        90
    22.4600        82
    22.4800        98
    22.5000        68
    22.5200       104
    22.5400        90
    22.5600        88
    22.5800        84
    22.6000        88
    22.6200        86
    22.6400        84
    22.6600        84
    22.6800        78
    22.7000        94
    22.7200        82
    22.7400        76
    22.7600        80
    22.7800        82
    22.8000        74
    22.8200        94
    22.8400        68
    22.8600        88
    22.8800       104
    22.9000        92
    22.9200        88
    22.9400        98
    22.9600       102
    22.9800        74
    23.0000        84
    23.0200        88
    23.0400        78
    23.0600        82
    23.0800        90
    23.1000        94
    23.1200       108
    23.1400        70
    23.1600        76
    23.1800       102
    23.2000        62
    23.2200        92
    23.2400        62
    23.2600        90
    23.2800        78
    23.3000        92
    23.3200       102
    23.3400        84
    23.3600        88
    23.3800        88
    23.4000        86
    23.4200        82
    23.4400        94
    23.4600       102
    23.4800        92
    23.5000        80
    23.5200        90
    23.5400        86
    23.5600        88
    23.5800        56
    23.6000        86
    23.6200        72
    23.6400        84
    23.6600        76
    23.6800       100
    23.7000        90
    23.7200        86
    23.7400        80
    23.7600        98
    23.7800        88
    23.8000        92
    23.8200        82
    23.8400        84
    23.8600       100
    23.8800        88
    23.9000        80
    23.9200        86
    23.9400        92
    23.9600       106
    23.9800        86
    24.0000        84
    24.0200        80
    24.0400        90
    24.0600        80
    24.0800        76
    24.1000        96
    24.1200        76
    24.1400        78
    24.1600        76
    24.1800        88
    24.2000        84
    24.2200       104
    24.2400        80
    24.2600        86
    24.2800        86
    24.3000        84
    24.3200        74
    24.3400       100
    24.3600        90
    24.3800        84
    24.4000        76
    24.4200        82
    24.4400        90
    24.4600        62
    24.4800        80
    24.5000        94
    24.5200        92
    24.5400        82
    24.5600        84
    24.5800        62
    24.6000        70
    24.6200        68
    24.6400        70
    24.6600        92
    24.6800        92
    24.7000        76
    24.7200        88
    24.7400        78
    24.7600        88
    24.7800        64
    24.8000        76
    24.8200        66
    24.8400        94
    24.8600        80
    24.8800        70
    24.9000        82
    24.9200       100
    24.9400        80
    24.9600        86
    24.9800        66
    25.0000        62
    25.0200        80
    25.0400        98
    25.0600        80
    25.0800        84
    25.1000        78
    25.1200        70
    25.1400        56
    25.1600        98
    25.1800        88
    25.2000        70
    25.2200        70
    25.2400        88
    25.2600        66
    25.2800        68
    25.3000        72
    25.3200        82
    25.3400        84
    25.3600        94
    25.3800        72
    25.4000        86
    25.4200        70
    25.4400        74
    25.4600        58
    25.4800        74
    25.5000        86
    25.5200        68
    25.5400        78
    25.5600        68
    25.5800        96
    25.6000        64
    25.6200        72
    25.6400        96
    25.6600        70
    25.6800        90
    25.7000        74
    25.7200        78
    25.7400        66
    25.7600        78
    25.7800        74
    25.8000        80
    25.8200        72
    25.8400        86
    25.8600        84
    25.8800        70
    25.9000       100
    25.9200        64
    25.9400        72
    25.9600        90
    25.9800        84
    26.0000        68
    26.0200        72
    26.0400        60
    26.0600        80
    26.0800        68
    26.1000        64
    26.1200        78
    26.1400        50
    26.1600        62
    26.1800        60
    26.2000        84
    26.2200        70
    26.2400        90
    26.2600        86
    26.2800        66
    26.3000        86
    26.3200        74
    26.3400        74
    26.3600        86
    26.3800        74
    26.4000        64
    26.4200        76
    26.4400        86
    26.4600        62
    26.4800        70
    26.5000        82
    26.5200        70
    26.5400        96
    26.5600        76
    26.5800        78
    26.6000        82
    26.6200        66
    26.6400        88
    26.6600        76
    26.6800        74
    26.7000        50
    26.7200        78
    26.7400        76
    26.7600        74
    26.7800        84
    26.8000        64
    26.8200        68
    26.8400        84
    26.8600        62
    26.8800        68
    26.9000        80
    26.9200        66
    26.9400        74
    26.9600        66
    26.9800        78
    27.0000        76
    27.0200        82
    27.0400        64
    27.0600        88
    27.0800        56
    27.1000        92
    27.1200        54
    27.1400        60
    27.1600        60
    27.1800        78
    27.2000        64
    27.2200        68
    27.2400        66
    27.2600        78
    27.2800        80
    27.3000        66
    27.3200        74
    27.3400        82
    27.3600        74
    27.3800        68
    27.4000        66
    27.4200        60
    27.4400        64
    27.4600        58
    27.4800        68
    27.5000        66
    27.5200        66
    27.5400        74
    27.5600        60
    27.5800        76
    27.6000        70
    27.6200        62
    27.6400        74
    27.6600        64
    27.6800        74
    27.7000        62
    27.7200        70
    27.7400        74
    27.7600        72
    27.7800        66
    27.8000        74
    27.8200        70
    27.8400        64
    27.8600        74
    27.8800        62
    27.9000        70
    27.9200        84
    27.9400        82
    27.9600        78
    27.9800        60
    28.0000        70
    28.0200        64
    28.0400        54
    28.0600        62
    28.0800        76
    28.1000        54
    28.1200        58
    28.1400        74
    28.1600        68
    28.1800        62
    28.2000        56
    28.2200        74
    28.2400        78
    28.2600        58
    28.2800        70
    28.3000        60
    28.3200        68
    28.3400        56
    28.3600        60
    28.3800        78
    28.4000        68
    28.4200        80
    28.4400        66
    28.4600        58
    28.4800        74
    28.5000        60
    28.5200        62
    28.5400        74
    28.5600        86
    28.5800        66
    28.6000        74
    28.6200        68
    28.6400        72
    28.6600        80
    28.6800        64
    28.7000        60
    28.7200        58
    28.7400        68
    28.7600        72
    28.7800        56
    28.8000        76
    28.8200        76
    28.8400        66
    28.8600        72
    28.8800        58
    28.9000        80
    28.9200        78
    28.9400        84
    28.9600        82
    28.9800        78
    29.0000        58
    29.0200        78
    29.0400        74
    29.0600        58
    29.0800        54
    29.1000        56
    29.1200        58
    29.1400        62
    29.1600        58
    29.1800        70
    29.2000        74
    29.2200        74
    29.2400        62
    29.2600        56
    29.2800        72
    29.3000        72
    29.3200        76
    29.3400        54
    29.3600        76
    29.3800        78
    29.4000        62
    29.4200        52
    29.4400        58
    29.4600        64
    29.4800        84
    29.5000        56
    29.5200        66
    29.5400        76
    29.5600        72
    29.5800        66
    29.6000        62
    29.6200        74
    29.6400        72
    29.6600        62
    29.6800        66
    29.7000        58
    29.7200        72
    29.7400        84
    29.7600        74
    29.7800        58
    29.8000        66
    29.8200        56
    29.8400        74
    29.8600        62
    29.8800        62
    29.9000        64
    29.9200        52
    29.9400        76
    29.9600        86
    29.9800        70
    30.0000        74
    30.0200        62
    30.0400        46
    30.0600        58
    30.0800        66
    30.1000        72
    30.1200        68
    30.1400        50
    30.1600        62
    30.1800        58
    30.2000        48
    30.2200        64
    30.2400        50
    30.2600        62
    30.2800        68
    30.3000        58
    30.3200        60
    30.3400        60
    30.3600        52
    30.3800        70
    30.4000        62
    30.4200        78
    30.4400        56
    30.4600        86
    30.4800        58
    30.5000        64
    30.5200        56
    30.5400        54
    30.5600        58
    30.5800        66
    30.6000        76
    30.6200        70
    30.6400        72
    30.6600        62
    30.6800        54
    30.7000        52
    30.7200        64
    30.7400        56
    30.7600        56
    30.7800        56
    30.8000        66
    30.8200        72
    30.8400        66
    30.8600        66
    30.8800        70
    30.9000        66
    30.9200        72
    30.9400        84
    30.9600       108
    30.9800        90
    31.0000       102
    31.0200       104
    31.0400       108
    31.0600       100
    31.0800        76
    31.1000        86
    31.1200        66
    31.1400        86
    31.1600        74
    31.1800        66
    31.2000        70
    31.2200        80
    31.2400        60
    31.2600        62
    31.2800        70
    31.3000        62
    31.3200        64
    31.3400        70
    31.3600        68
    31.3800        60
    31.4000        70
    31.4200        72
    31.4400        60
    31.4600        64
    31.4800        70
    31.5000        66
    31.5200        60
    31.5400        62
    31.5600        70
    31.5800        70
    31.6000        66
    31.6200        66
    31.6400        52
    31.6600        58
    31.6800        52
    31.7000        66
    31.7200        66
    31.7400        68
    31.7600        64
    31.7800        58
    31.8000        70
    31.8200        72
    31.8400        64
    31.8600        62
    31.8800        58
    31.9000        66
    31.9200        54
    31.9400        52
    31.9600        58
    31.9800        54
    32.0000        62
    32.0200        68
    32.0400        74
    32.0600        52
    32.0800        60
    32.1000        60
    32.1200        52
    32.1400        58
    32.1600        66
    32.1800        72
    32.2000        70
    32.2200        76
    32.2400        62
    32.2600        70
    32.2800        78
    32.3000        62
    32.3200        52
    32.3400        72
    32.3600        62
    32.3800        84
    32.4000        66
    32.4200        60
    32.4400        72
    32.4600        62
    32.4800        52
    32.5000        78
    32.5200        70
    32.5400        62
    32.5600        62
    32.5800        62
    32.6000        72
    32.6200        58
    32.6400        80
    32.6600        64
    32.6800        68
    32.7000        66
    32.7200        66
    32.7400        68
    32.7600        70
    32.7800        60
    32.8000        72
    32.8200        68
    32.8400        66
    32.8600        66
    32.8800        64
    32.9000        88
    32.9200        84
    32.9400        68
    32.9600        74
    32.9800        70
    33.0000        66
    33.0200        78
    33.0400        70
    33.0600        84
    33.0800        68
    33.1000        86
    33.1200        88
    33.1400        92
    33.1600       114
    33.1800       148
    33.2000       184
    33.2200       186
    33.2400       214
    33.2600       216
    33.2800       170
    33.3000       160
    33.3200       168
    33.3400       118
    33.3600       104
    33.3800       108
    33.4000       106
    33.4200       100
    33.4400        72
    33.4600        82
    33.4800        74
    33.5000        82
    33.5200        76
    33.5400        64
    33.5600        66
    33.5800        60
    33.6000        70
    33.6200        70
    33.6400        70
    33.6600        62
    33.6800        58
    33.7000        72
    33.7200        64
    33.7400        66
    33.7600        66
    33.7800        70
    33.8000        62
    33.8200        72
    33.8400        66
    33.8600        70
    33.8800        80
    33.9000        72
    33.9200        64
    33.9400        60
    33.9600        74
    33.9800        82
    34.0000        62
    34.0200        92
    34.0400        80
    34.0600        62
    34.0800        62
    34.1000        68
    34.1200        70
    34.1400        80
    34.1600        84
    34.1800        76
    34.2000        68
    34.2200        80
    34.2400        64
    34.2600        76
    34.2800        92
    34.3000       102
    34.3200        92
    34.3400        78
    34.3600        64
    34.3800        60
    34.4000        90
    34.4200        62
    34.4400        72
    34.4600        72
    34.4800        64
    34.5000        62
    34.5200        62
    34.5400        76
    34.5600        70
    34.5800        52
    34.6000        76
    34.6200        60
    34.6400        70
    34.6600        66
    34.6800        60
    34.7000        60
    34.7200        56
    34.7400        58
    34.7600        66
    34.7800        68
    34.8000        70
    34.8200        84
    34.8400        64
    34.8600        74
    34.8800        62
    34.9000        64
    34.9200        84
    34.9400        68
    34.9600        64
    34.9800        68
    35.0000        64
    35.0200        68
    35.0400        54
    35.0600        72
    35.0800        56
    35.1000        70
    35.1200        60
    35.1400        70
    35.1600        80
    35.1800        70
    35.2000        54
    35.2200        74
    35.2400        84
    35.2600        52
    35.2800        78
    35.3000        82
    35.3200        78
    35.3400        66
    35.3600        76
    35.3800        60
    35.4000        72
    35.4200        74
    35.4400        76
    35.4600        86
    35.4800        66
    35.5000        66
    35.5200        88
    35.5400        86
    35.5600        68
    35.5800        54
    35.6000        94
    35.6200        66
    35.6400        68
    35.6600        72
    35.6800        82
    35.7000        80
    35.7200        82
    35.7400        72
    35.7600        98
    35.7800        64
    35.8000        68
    35.8200        70
    35.8400        60
    35.8600        64
    35.8800        70
    35.9000        72
    35.9200        68
    35.9400        92
    35.9600        72
    35.9800        86
    36.0000        84
    36.0200        72
    36.0400        78
    36.0600        68
    36.0800        80
    36.1000        72
    36.1200        56
    36.1400        70
    36.1600        88
    36.1800        72
    36.2000        94
    36.2200        60
    36.2400        74
    36.2600        74
    36.2800        76
    36.3000        70
    36.3200        60
    36.3400        82
    36.3600        76
    36.3800        76
    36.4000        76
    36.4200        80
    36.4400        78
    36.4600        78
    36.4800        78
    36.5000        78
    36.5200        76
    36.5400        84
    36.5600        90
    36.5800        76
    36.6000        88
    36.6200        82
    36.6400        76
    36.6600        72
    36.6800        80
    36.7000        74
    36.7200        84
    36.7400        82
    36.7600        80
    36.7800        84
    36.8000        78
    36.8200        82
    36.8400        86
    36.8600        98
    36.8800        78
    36.9000        70
    36.9200        66
    36.9400        70
    36.9600        92
    36.9800        74
    37.0000       104
    37.0200        76
    37.0400        80
    37.0600        80
    37.0800        88
    37.1000        82
    37.1200        74
    37.1400        84
    37.1600        72
    37.1800        88
    37.2000        84
    37.2200        98
    37.2400        72
    37.2600        76
    37.2800        80
    37.3000        84
    37.3200        76
    37.3400        80
    37.3600        74
    37.3800        98
    37.4000        70
    37.4200        76
    37.4400        80
    37.4600        90
    37.4800        78
    37.5000        84
    37.5200        88
    37.5400        82
    37.5600        86
    37.5800        74
    37.6000        64
    37.6200        86
    37.6400        80
    37.6600        94
    37.6800        94
    37.7000        90
    37.7200        98
    37.7400        80
    37.7600        94
    37.7800        98
    37.8000        98
    37.8200        94
    37.8400        92
    37.8600        64
    37.8800        74
    37.9000       102
    37.9200        98
    37.9400        86
    37.9600        96
    37.9800        90
    38.0000       112
    38.0200        76
    38.0400        80
    38.0600        86
    38.0800        76
    38.1000        76
    38.1200        84
    38.1400        74
    38.1600        84
    38.1800        78
    38.2000        92
    38.2200       106
    38.2400        80
    38.2600        98
    38.2800        88
    38.3000       108
    38.3200        92
    38.3400       100
    38.3600       122
    38.3800       126
    38.4000       166
    38.4200       152
    38.4400       186
    38.4600       260
    38.4800       310
    38.5000       384
    38.5200       530
    38.5400       676
    38.5600       760
    38.5800       684
    38.6000       660
    38.6200       554
    38.6400       510
    38.6600       400
    38.6800       328
    38.7000       246
    38.7200       192
    38.7400       132
    38.7600       124
    38.7800       120
    38.8000       106
    38.8200       102
    38.8400       118
    38.8600        76
    38.8800        98
    38.9000        82
    38.9200        96
    38.9400        90
    38.9600        90
    38.9800        88
    39.0000        82
    39.0200        82
    39.0400        66
    39.0600        80
    39.0800        60
    39.1000        76
    39.1200        92
    39.1400        76
    39.1600        90
    39.1800        86
    39.2000       100
    39.2200        82
    39.2400        82
    39.2600        84
    39.2800        96
    39.3000        88
    39.3200        74
    39.3400        80
    39.3600        90
    39.3800        82
    39.4000        88
    39.4200        92
    39.4400        64
    39.4600        68
    39.4800        82
    39.5000        90
    39.5200        84
    39.5400        74
    39.5600        72
    39.5800        66
    39.6000        82
    39.6200        78
    39.6400        66
    39.6600       102
    39.6800        86
    39.7000        76
    39.7200       100
    39.7400        88
    39.7600        82
    39.7800        84
    39.8000        88
    39.8200        82
    39.8400        74
    39.8600        64
    39.8800        90
    39.9000        74
    39.9200        90
    39.9400        86
    39.9600        86
    39.9800        70
    40.0000        92
    40.0200        84
    40.0400        62
    40.0600        74
    40.0800        72
    40.1000        70
    40.1200        90
    40.1400        74
    40.1600        70
    40.1800        94
    40.2000        72
    40.2200        72
    40.2400        66
    40.2600        78
    40.2800        68
    40.3000        68
    40.3200        80
    40.3400        78
    40.3600        76
    40.3800        74
    40.4000        78
    40.4200        70
    40.4400        80
    40.4600        80
    40.4800        76
    40.5000        82
    40.5200        68
    40.5400        74
    40.5600        82
    40.5800        86
    40.6000        74
    40.6200        72
    40.6400        86
    40.6600        74
    40.6800        86
    40.7000        68
    40.7200        66
    40.7400        72
    40.7600        96
    40.7800        96
    40.8000        60
    40.8200        96
    40.8400        88
    40.8600        66
    40.8800        62
    40.9000        84
    40.9200        66
    40.9400        82
    40.9600        76
    40.9800        66
    41.0000        62
    41.0200        66
    41.0400        80
    41.0600        64
    41.0800        60
    41.1000        58
    41.1200        72
    41.1400        70
    41.1600        60
    41.1800        74
    41.2000        72
    41.2200        62
    41.2400        54
    41.2600        66
    41.2800        76
    41.3000        62
    41.3200        62
    41.3400        60
    41.3600        70
    41.3800        72
    41.4000        66
    41.4200        64
    41.4400        60
    41.4600        76
    41.4800        58
    41.5000        52
    41.5200        68
    41.5400        60
    41.5600        70
    41.5800        58
    41.6000        48
    41.6200        80
    41.6400        70
    41.6600        72
    41.6800        76
    41.7000        64
    41.7200        72
    41.7400        62
    41.7600        68
    41.7800        74
    41.8000        58
    41.8200        68
    41.8400        40
    41.8600        54
    41.8800        74
    41.9000        68
    41.9200        62
    41.9400        56
    41.9600        64
    41.9800        64
    42.0000        54
    42.0200        72
    42.0400        68
    42.0600        64
    42.0800        70
    42.1000        56
    42.1200        58
    42.1400        50
    42.1600        52
    42.1800        70
    42.2000        72
    42.2200        64
    42.2400        76
    42.2600        66
    42.2800        60
    42.3000        76
    42.3200        70
    42.3400        74
    42.3600        64
    42.3800        84
    42.4000        48
    42.4200        66
    42.4400        66
    42.4600        50
    42.4800        66
    42.5000        66
    42.5200        62
    42.5400        76
    42.5600        82
    42.5800        64
    42.6000        52
    42.6200        66
    42.6400        60
    42.6600        66
    42.6800        52
    42.7000        68
    42.7200        62
    42.7400        66
    42.7600        72
    42.7800        64
    42.8000        56
    42.8200        82
    42.8400        68
    42.8600        70
    42.8800        76
    42.9000        72
    42.9200        82
    42.9400        62
    42.9600        68
    42.9800        78
    43.0000        54
    43.0200        74
    43.0400        66
    43.0600        58
    43.0800        76
    43.1000        72
    43.1200        80
    43.1400        90
    43.1600       100
    43.1800        90
    43.2000       132
    43.2200       176
    43.2400       200
    43.2600       248
    43.2800       326
    43.3000       476
    43.3200       542
    43.3400       642
    43.3600       510
    43.3800       456
    43.4000       374
    43.4200       364
    43.4400       374
    43.4600       260
    43.4800       194
    43.5000       134
    43.5200       106
    43.5400        86
    43.5600        82
    43.5800        68
    43.6000        68
    43.6200        70
    43.6400        68
    43.6600        82
    43.6800        66
    43.7000        60
    43.7200        82
    43.7400        66
    43.7600        60
    43.7800        52
    43.8000        66
    43.8200        56
    43.8400        58
    43.8600        56
    43.8800        54
    43.9000        54
    43.9200        50
    43.9400        64
    43.9600        60
    43.9800        74
    44.0000        54
    44.0200        64
    44.0400        62
    44.0600        58
    44.0800        52
    44.1000        68
    44.1200        70
    44.1400        64
    44.1600        62
    44.1800        62
    44.2000        48
    44.2200        68
    44.2400        62
    44.2600        42
    44.2800        70
    44.3000        44
    44.3200        66
    44.3400        68
    44.3600        64
    44.3800        82
    44.4000        72
    44.4200        68
    44.4400        54
    44.4600        64
    44.4800        62
    44.5000        58
    44.5200        64
    44.5400        78
    44.5600        58
    44.5800        56
    44.6000        58
    44.6200        72
    44.6400        70
    44.6600        54
    44.6800        68
    44.7000        68
    44.7200        66
    44.7400        58
    44.7600        74
    44.7800        78
    44.8000        56
    44.8200        62
    44.8400        66
    44.8600        50
    44.8800        76
    44.9000        54
    44.9200        62
    44.9400        66
    44.9600        58
    44.9800        56
    45.0000        66
    45.0200        62
    45.0400        74
    45.0600        66
    45.0800        76
    45.1000        72
    45.1200        52
    45.1400        80
    45.1600        62
    45.1800        66
    45.2000        58
    45.2200        58
    45.2400        50
    45.2600        74
    45.2800        50
    45.3000        74
    45.3200        76
    45.3400        64
    45.3600        58
    45.3800        80
    45.4000        56
    45.4200        64
    45.4400        48
    45.4600        52
    45.4800        66
    45.5000        56
    45.5200        60
    45.5400        56
    45.5600        56
    45.5800        60
    45.6000        54
    45.6200        56
    45.6400        72
    45.6600        54
    45.6800        60
    45.7000        78
    45.7200        52
    45.7400        50
    45.7600        58
    45.7800        50
    45.8000        60
    45.8200        72
    45.8400        56
    45.8600        62
    45.8800        58
    45.9000        72
    45.9200        70
    45.9400        62
    45.9600        60
    45.9800        62
    46.0000        70
    46.0200        64
    46.0400        62
    46.0600        64
    46.0800        66
    46.1000        76
    46.1200        62
    46.1400        46
    46.1600        66
    46.1800        56
    46.2000        64
    46.2200        56
    46.2400        76
    46.2600        70
    46.2800        54
    46.3000        46
    46.3200        54
    46.3400        68
    46.3600        68
    46.3800        74
    46.4000        60
    46.4200        58
    46.4400        62
    46.4600        52
    46.4800        54
    46.5000        60
    46.5200        60
    46.5400        60
    46.5600        64
    46.5800        62
    46.6000        74
    46.6200        54
    46.6400        70
    46.6600        62
    46.6800        44
    46.7000        56
    46.7200        62
    46.7400        50
    46.7600        64
    46.7800        70
    46.8000        42
    46.8200        74
    46.8400        76
    46.8600        62
    46.8800        72
    46.9000        52
    46.9200        72
    46.9400        62
    46.9600        50
    46.9800        52
    47.0000        66
    47.0200        48
    47.0400        64
    47.0600        56
    47.0800        60
    47.1000        64
    47.1200        74
    47.1400        74
    47.1600        62
    47.1800        54
    47.2000        58
    47.2200        44
    47.2400        66
    47.2600        66
    47.2800        60
    47.3000        52
    47.3200        56
    47.3400        70
    47.3600        68
    47.3800        54
    47.4000        70
    47.4200        70
    47.4400        68
    47.4600        84
    47.4800        84
    47.5000        64
    47.5200        78
    47.5400        90
    47.5600        96
    47.5800       114
    47.6000       144
    47.6200       144
    47.6400       194
    47.6600       278
    47.6800       362
    47.7000       446
    47.7200       484
    47.7400       402
    47.7600       336
    47.7800       280
    47.8000       276
    47.8200       280
    47.8400       224
    47.8600       232
    47.8800       148
    47.9000       132
    47.9200        90
    47.9400        84
    47.9600        82
    47.9800        78
    48.0000        62
    48.0200        80
    48.0400        70
    48.0600        88
    48.0800        62
    48.1000        72
    48.1200        58
    48.1400        62
    48.1600        54
    48.1800        62
    48.2000        66
    48.2200        52
    48.2400        54
    48.2600        60
    48.2800        62
    48.3000        50
    48.3200        68
    48.3400        40
    48.3600        50
    48.3800        54
    48.4000        58
    48.4200        52
    48.4400        54
    48.4600        70
    48.4800        58
    48.5000        66
    48.5200        62
    48.5400        66
    48.5600        70
    48.5800        66
    48.6000        70
    48.6200        66
    48.6400        60
    48.6600        66
    48.6800        58
    48.7000        64
    48.7200        52
    48.7400        60
    48.7600        62
    48.7800        50
    48.8000        62
    48.8200        56
    48.8400        70
    48.8600        58
    48.8800        54
    48.9000        56
    48.9200        66
    48.9400        54
    48.9600        60
    48.9800        50
    49.0000        54
    49.0200        44
    49.0400        48
    49.0600        68
    49.0800        64
    49.1000        62
    49.1200        68
    49.1400        48
    49.1600        68
    49.1800        60
    49.2000        60
    49.2200        46
    49.2400        66
    49.2600        70
    49.2800        66
    49.3000        54
    49.3200        64
    49.3400        48
    49.3600        52
    49.3800        62
    49.4000        48
    49.4200        66
    49.4400        54
    49.4600        58
    49.4800        48
    49.5000        56
    49.5200        54
    49.5400        58
    49.5600        62
    49.5800        54
    49.6000        54
    49.6200        60
    49.6400        64
    49.6600        66
    49.6800        54
    49.7000        56
    49.7200        58
    49.7400        50
    49.7600        58
    49.7800        52
    49.8000        50
    49.8200        56
    49.8400        50
    49.8600        48
    49.8800        70
    49.9000        60
    49.9200        60
    49.9400        64
    49.9600        62
    49.9800        58
    50.0000        64
    50.0200        54
    50.0400        62
    50.0600        58
    50.0800        62
    50.1000        62
    50.1200        54
    50.1400        52
    50.1600        50
    50.1800        56
    50.2000        58
    50.2200        48
    50.2400        60
    50.2600        62
    50.2800        76
    50.3000        66
    50.3200        60
    50.3400        42
    50.3600        44
    50.3800        62
    50.4000        58
    50.4200        66
    50.4400        50
    50.4600        52
    50.4800        64
    50.5000        70
    50.5200        66
    50.5400        52
    50.5600        60
    50.5800        62
    50.6000        38
    50.6200        56
    50.6400        56
    50.6600        62
    50.6800        54
    50.7000        66
    50.7200        56
    50.7400        46
    50.7600        52
    50.7800        64
    50.8000        46
    50.8200        56
    50.8400        58
    50.8600        40
    50.8800        64
    50.9000        58
    50.9200        44
    50.9400        58
    50.9600        52
    50.9800        56
    51.0000        56
    51.0200        50
    51.0400        56
    51.0600        52
    51.0800        54
    51.1000        66
    51.1200        54
    51.1400        50
    51.1600        54
    51.1800        58
    51.2000        54
    51.2200        48
    51.2400        48
    51.2600        44
    51.2800        68
    51.3000        46
    51.3200        54
    51.3400        62
    51.3600        66
    51.3800        48
    51.4000        54
    51.4200        54
    51.4400        54
    51.4600        50
    51.4800        66
    51.5000        68
    51.5200        66
    51.5400        56
    51.5600        54
    51.5800        54
    51.6000        68
    51.6200        66
    51.6400        56
    51.6600        52
    51.6800        64
    51.7000        58
    51.7200        52
    51.7400        56
    51.7600        66
    51.7800        60
    51.8000        42
    51.8200        56
    51.8400        56
    51.8600        70
    51.8800        60
    51.9000        60
    51.9200        64
    51.9400        72
    51.9600        50
    51.9800        58
    52.0000        74
    52.0200        54
    52.0400        54
    52.0600        60
    52.0800        42
    52.1000        48
    52.1200        68
    52.1400        62
    52.1600        42
    52.1800        68
    52.2000        60
    52.2200        58
    52.2400        60
    52.2600        52
    52.2800        56
    52.3000        58
    52.3200        54
    52.3400        56
    52.3600        52
    52.3800        56
    52.4000        62
    52.4200        58
    52.4400        42
    52.4600        42
    52.4800        74
    52.5000        58
    52.5200        56
    52.5400        54
    52.5600        52
    52.5800        50
    52.6000        52
    52.6200        66
    52.6400        56
    52.6600        60
    52.6800        52
    52.7000        46
    52.7200        60
    52.7400        56
    52.7600        58
    52.7800        54
    52.8000        34
    52.8200        58
    52.8400        50
    52.8600        56
    52.8800        72
    52.9000        72
    52.9200        62
    52.9400        60
    52.9600        58
    52.9800        56
    53.0000        52
    53.0200        50
    53.0400        46
    53.0600        50
    53.0800        50
    53.1000        54
    53.1200        34
    53.1400        64
    53.1600        50
    53.1800        48
    53.2000        52
    53.2200        50
    53.2400        56
    53.2600        42
    53.2800        44
    53.3000        52
    53.3200        60
    53.3400        54
    53.3600        58
    53.3800        68
    53.4000        52
    53.4200        54
    53.4400        58
    53.4600        56
    53.4800        54
    53.5000        54
    53.5200        50
    53.5400        46
    53.5600        64
    53.5800        52
    53.6000        46
    53.6200        40
    53.6400        60
    53.6600        58
    53.6800        76
    53.7000        46
    53.7200        52
    53.7400        70
    53.7600        54
    53.7800        40
    53.8000        60
    53.8200        54
    53.8400        50
    53.8600        52
    53.8800        54
    53.9000        60
    53.9200        50
    53.9400        36
    53.9600        46
    53.9800        64
    54.0000        60
    54.0200        54
    54.0400        56
    54.0600        62
    54.0800        56
    54.1000        66
    54.1200        56
    54.1400        52
    54.1600        64
    54.1800        56
    54.2000        68
    54.2200        56
    54.2400        54
    54.2600        50
    54.2800        42
    54.3000        44
    54.3200        68
    54.3400        50
    54.3600        58
    54.3800        60
    54.4000        56
    54.4200        38
    54.4400        46
    54.4600        56
    54.4800        56
    54.5000        58
    54.5200        56
    54.5400        42
    54.5600        48
    54.5800        62
    54.6000        50
    54.6200        48
    54.6400        54
    54.6600        52
    54.6800        56
    54.7000        50
    54.7200        66
    54.7400        52
    54.7600        52
    54.7800        64
    54.8000        52
    54.8200        54
    54.8400        54
    54.8600        48
    54.8800        72
    54.9000        62
    54.9200        54
    54.9400        60
    54.9600        48
    54.9800        60
    55.0000        54
    55.0200        50
    55.0400        64
    55.0600        66
    55.0800        50
    55.1000        46
    55.1200        52
    55.1400        62
    55.1600        58
    55.1800        52
    55.2000        52
    55.2200        38
    55.2400        46
    55.2600        72
    55.2800        48
    55.3000        58
    55.3200        58
    55.3400        52
    55.3600        48
    55.3800        54
    55.4000        44
    55.4200        56
    55.4400        70
    55.4600        70
    55.4800        56
    55.5000        68
    55.5200        60
    55.5400        88
    55.5600        82
    55.5800       100
    55.6000       144
    55.6200       188
    55.6400       252
    55.6600       332
    55.6800       316
    55.7000       302
    55.7200       230
    55.7400       202
    55.7600       184
    55.7800       216
    55.8000       222
    55.8200       194
    55.8400       168
    55.8600       106
    55.8800        90
    55.9000        88
    55.9200        70
    55.9400        64
    55.9600        72
    55.9800        50
    56.0000        64
    56.0200        72
    56.0400        58
    56.0600        48
    56.0800        58
    56.1000        62
    56.1200        60
    56.1400        70
    56.1600        46
    56.1800        56
    56.2000        54
    56.2200        46
    56.2400        58
    56.2600        52
    56.2800        68
    56.3000        44
    56.3200        54
    56.3400        56
    56.3600        56
    56.3800        62
    56.4000        60
    56.4200        44
    56.4400        60
    56.4600        48
    56.4800        52
    56.5000        64
    56.5200        36
    56.5400        64
    56.5600        52
    56.5800        60
    56.6000        48
    56.6200        56
    56.6400        40
    56.6600        52
    56.6800        52
    56.7000        64
    56.7200        40
    56.7400        54
    56.7600        40
    56.7800        52
    56.8000        60
    56.8200        56
    56.8400        58
    56.8600        54
    56.8800        54
    56.9000        50
    56.9200        68
    56.9400        52
    56.9600        50
    56.9800        58
    57.0000        66
    57.0200        42
    57.0400        44
    57.0600        54
    57.0800        52
    57.1000        52
    57.1200        62
    57.1400        56
    57.1600        52
    57.1800        70
    57.2000        52
    57.2200        48
    57.2400        66
    57.2600        50
    57.2800        56
    57.3000        58
    57.3200        48
    57.3400        60
    57.3600        50
    57.3800        60
    57.4000        58
    57.4200        60
    57.4400        42
    57.4600        38
    57.4800        46
    57.5000        40
    57.5200        60
    57.5400        52
    57.5600        48
    57.5800        54
    57.6000        46
    57.6200        62
    57.6400        52
    57.6600        60
    57.6800        46
    57.7000        38
    57.7200        54
    57.7400        48
    57.7600        64
    57.7800        50
    57.8000        56
    57.8200        58
    57.8400        46
    57.8600        58
    57.8800        48
    57.9000        56
    57.9200        48
    57.9400        60
    57.9600        52
    57.9800        58
    58.0000        44
    58.0200        52
    58.0400        42
    58.0600        68
    58.0800        68
    58.1000        50
    58.1200        68
    58.1400        52
    58.1600        52
    58.1800        44
    58.2000        52
    58.2200        38
    58.2400        66
    58.2600        44
    58.2800        58
    58.3000        34
    58.3200        58
    58.3400        52
    58.3600        48
    58.3800        60
    58.4000        52
    58.4200        50
    58.4400        72
    58.4600        62
    58.4800        54
    58.5000        54
    58.5200        46
    58.5400        58
    58.5600        56
    58.5800        58
    58.6000        44
    58.6200        50
    58.6400        46
    58.6600        54
    58.6800        56
    58.7000        48
    58.7200        56
    58.7400        46
    58.7600        46
    58.7800        50
    58.8000        62
    58.8200        58
    58.8400        44
    58.8600        44
    58.8800        38
    58.9000        36
    58.9200        54
    58.9400        56
    58.9600        54
    58.9800        46
    59.0000        46
    59.0200        44
    59.0400        60
    59.0600        52
    59.0800        40
    59.1000        70
    59.1200        44
    59.1400        34
    59.1600        56
    59.1800        52
    59.2000        40
    59.2200        50
    59.2400        50
    59.2600        52
    59.2800        48
    59.3000        52
    59.3200        38
    59.3400        58
    59.3600        54
    59.3800        54
    59.4000        48
    59.4200        50
    59.4400        44
    59.4600        56
    59.4800        54
    59.5000        50
    59.5200        52
    59.5400        68
    59.5600        60
    59.5800        44
    59.6000        42
    59.6200        36
    59.6400        58
    59.6600        64
    59.6800        56
    59.7000        50
    59.7200        62
    59.7400        58
    59.7600        50
    59.7800        44
    59.8000        44
    59.8200        46
    59.8400        46
    59.8600        52
    59.8800        52
    59.9000        50
    59.9200        64
    59.9400        46
    59.9600        40
    59.9800        46
    60.0000        50
    60.0200        56
    60.0400        52
    60.0600        54
    60.0800        46
    60.1000        50
    60.1200        56
    60.1400        38
    60.1600        44
    60.1800        52
    60.2000        52
    60.2200        54
    60.2400        64
    60.2600        48
    60.2800        50
    60.3000        56
    60.3200        44
    60.3400        54
    60.3600        52
    60.3800        44
    60.4000        36
    60.4200        52
    60.4400        62
    60.4600        50
    60.4800        56
    60.5000        62
    60.5200        50
    60.5400        56
    60.5600        48
    60.5800        38
    60.6000        50
    60.6200        42
    60.6400        48
    60.6600        56
    60.6800        36
    60.7000        66
    60.7200        56
    60.7400        62
    60.7600        48
    60.7800        56
    60.8000        60
    60.8200        42
    60.8400        66
    60.8600        48
    60.8800        50
    60.9000        66
    60.9200        56
    60.9400        62
    60.9600        50
    60.9800        48
    61.0000        60
    61.0200        36
    61.0400        52
    61.0600        56
    61.0800        42
    61.1000        44
    61.1200        44
    61.1400        54
    61.1600        46
    61.1800        56
    61.2000        48
    61.2200        42
    61.2400        50
    61.2600        48
    61.2800        36
    61.3000        50
    61.3200        52
    61.3400        48
    61.3600        42
    61.3800        58
    61.4000        44
    61.4200        48
    61.4400        48
    61.4600        52
    61.4800        40
    61.5000        52
    61.5200        52
    61.5400        44
    61.5600        48
    61.5800        40
    61.6000        62
    61.6200        50
    61.6400        48
    61.6600        50
    61.6800        52
    61.7000        56
    61.7200        62
    61.7400        44
    61.7600        56
    61.7800        46
    61.8000        56
    61.8200        40
    61.8400        36
    61.8600        54
    61.8800        36
    61.9000        52
    61.9200        46
    61.9400        54
    61.9600        64
    61.9800        40
    62.0000        38
    62.0200        48
    62.0400        46
    62.0600        48
    62.0800        54
    62.1000        42
    62.1200        54
    62.1400        42
    62.1600        46
    62.1800        38
    62.2000        52
    62.2200        54
    62.2400        52
    62.2600        56
    62.2800        56
    62.3000        44
    62.3200        66
    62.3400        44
    62.3600        56
    62.3800        52
    62.4000        58
    62.4200        34
    62.4400        54
    62.4600        48
    62.4800        44
    62.5000        54
    62.5200        54
    62.5400        62
    62.5600        74
    62.5800        56
    62.6000        50
    62.6200        44
    62.6400        38
    62.6600        50
    62.6800        52
    62.7000        42
    62.7200        46
    62.7400        52
    62.7600        56
    62.7800        48
    62.8000        52
    62.8200        48
    62.8400        60
    62.8600        38
    62.8800        62
    62.9000        52
    62.9200        46
    62.9400        52
    62.9600        50
    62.9800        46
    63.0000        50
    63.0200        46
    63.0400        46
    63.0600        38
    63.0800        44
    63.1000        48
    63.1200        48
    63.1400        58
    63.1600        66
    63.1800        56
    63.2000        56
    63.2200        52
    63.2400        60
    63.2600        42
    63.2800        50
    63.3000        54
    63.3200        50
    63.3400        48
    63.3600        44
    63.3800        36
    63.4000        54
    63.4200        46
    63.4400        54
    63.4600        38
    63.4800        54
    63.5000        48
    63.5200        46
    63.5400        40
    63.5600        38
    63.5800        48
    63.6000        52
    63.6200        54
    63.6400        52
    63.6600        42
    63.6800        58
    63.7000        52
    63.7200        54
    63.7400        48
    63.7600        38
    63.7800        56
    63.8000        38
    63.8200        40
    63.8400        40
    63.8600        48
    63.8800        50
    63.9000        42
    63.9200        52
    63.9400        60
    63.9600        52
    63.9800        54
    64.0000        34
    64.0200        54
    64.0400        40
    64.0600        54
    64.0800        56
    64.1000        42
    64.1200        56
    64.1400        42
    64.1600        46
    64.1800        54
    64.2000        50
    64.2200        54
    64.2400        64
    64.2600        46
    64.2800        52
    64.3000        58
    64.3200        62
    64.3400        60
    64.3600        60
    64.3800        32
    64.4000        46
    64.4200        60
    64.4400        38
    64.4600        50
    64.4800        50
    64.5000        44
    64.5200        44
    64.5400        42
    64.5600        52
    64.5800        54
    64.6000        46
    64.6200        54
    64.6400        38
    64.6600        54
    64.6800        54
    64.7000        50
    64.7200        56
    64.7400        52
    64.7600        44
    64.7800        48
    64.8000        46
    64.8200        48
    64.8400        38
    64.8600        46
    64.8800        54
    64.9000        56
    64.9200        62
    64.9400        52
    64.9600        48
    64.9800        46
    65.0000        58
    65.0200        50
    65.0400        36
    65.0600        50
    65.0800        52
    65.1000        54
    65.1200        50
    65.1400        52
    65.1600        42
    65.1800        54
    65.2000        68
    65.2200        56
    65.2400        56
    65.2600        38
    65.2800        54
    65.3000        50
    65.3200        58
    65.3400        42
    65.3600        56
    65.3800        40
    65.4000        42
    65.4200        40
    65.4400        42
    65.4600        44
    65.4800        52
    65.5000        44
    65.5200        48
    65.5400        50
    65.5600        54
    65.5800        56
    65.6000        58
    65.6200        46
    65.6400        46
    65.6600        52
    65.6800        42
    65.7000        46
    65.7200        48
    65.7400        50
    65.7600        50
    65.7800        60
    65.8000        46
    65.8200        50
    65.8400        46
    65.8600        50
    65.8800        46
    65.9000        50
    65.9200        74
    65.9400        54
    65.9600        54
    65.9800        46
    66.0000        50
    66.0200        48
    66.0400        66
    66.0600        60
    66.0800        52
    66.1000        60
    66.1200        70
    66.1400        66
    66.1600        74
    66.1800        62
    66.2000       108
    66.2200        96
    66.2400        94
    66.2600       100
    66.2800       134
    66.3000       174
    66.3200       224
    66.3400       366
    66.3600       510
    66.3800       686
    66.4000       776
    66.4200       722
    66.4400       520
    66.4600       364
    66.4800       304
    66.5000       310
    66.5200       340
    66.5400       396
    66.5600       430
    66.5800       416
    66.6000       284
    66.6200       232
    66.6400       150
    66.6600       110
    66.6800        96
    66.7000        74
    66.7200        74
    66.7400        62
    66.7600        70
    66.7800        58
    66.8000        62
    66.8200        54
    66.8400        58
    66.8600        44
    66.8800        54
    66.9000        60
    66.9200        38
    66.9400        48
    66.9600        56
    66.9800        60
    67.0000        48
    67.0200        40
    67.0400        56
    67.0600        56
    67.0800        68
    67.1000        60
    67.1200        60
    67.1400        48
    67.1600        52
    67.1800        64
    67.2000        48
    67.2200        56
    67.2400        42
    67.2600        54
    67.2800        42
    67.3000        50
    67.3200        60
    67.3400        54
    67.3600        56
    67.3800        54
    67.4000        52
    67.4200        44
    67.4400        38
    67.4600        60
    67.4800        62
    67.5000        48
    67.5200        34
    67.5400        60
    67.5600        38
    67.5800        38
    67.6000        34
    67.6200        42
    67.6400        40
    67.6600        62
    67.6800        38
    67.7000        58
    67.7200        56
    67.7400        44
    67.7600        46
    67.7800        46
    67.8000        46
    67.8200        50
    67.8400        50
    67.8600        36
    67.8800        50
    67.9000        46
    67.9200        54
    67.9400        54
    67.9600        50
    67.9800        50
    68.0000        60
    68.0200        42
    68.0400        46
    68.0600        58
    68.0800        46
    68.1000        34
    68.1200        44
    68.1400        46
    68.1600        50
    68.1800        46
    68.2000        50
    68.2200        40
    68.2400        26
    68.2600        46
    68.2800        42
    68.3000        62
    68.3200        44
    68.3400        44
    68.3600        52
    68.3800        48
    68.4000        52
    68.4200        50
    68.4400        50
    68.4600        34
    68.4800        44
    68.5000        52
    68.5200        42
    68.5400        40
    68.5600        44
    68.5800        38
    68.6000        46
    68.6200        50
    68.6400        44
    68.6600        48
    68.6800        38
    68.7000        64
    68.7200        44
    68.7400        64
    68.7600        54
    68.7800        38
    68.8000        46
    68.8200        42
    68.8400        52
    68.8600        38
    68.8800        48
    68.9000        42
    68.9200        52
    68.9400        54
    68.9600        42
    68.9800        48
    69.0000        46
    69.0200        44
    69.0400        56
    69.0600        46
    69.0800        44
    69.1000        46
    69.1200        62
    69.1400        52
    69.1600        30
    69.1800        54
    69.2000        46
    69.2200        52
    69.2400        44
    69.2600        50
    69.2800        50
    69.3000        48
    69.3200        50
    69.3400        60
    69.3600        44
    69.3800        46
    69.4000        44
    69.4200        48
    69.4400        56
    69.4600        52
    69.4800        38
    69.5000        40
    69.5200        60
    69.5400        44
    69.5600        52
    69.5800        50
    69.6000        72
    69.6200        60
    69.6400        64
    69.6600        58
    69.6800        60
    69.7000       100
    69.7200       114
    69.7400       132
    69.7600       138
    69.7800       130
    69.8000       132
    69.8200        86
    69.8400        90
    69.8600        88
    69.8800        90
    69.9000        88
    69.9200       122
    69.9400        90
    69.9600        84
    69.9800        92
    70.0000        68
    70.0200        46
    70.0400        44
    70.0600        62
    70.0800        56
    70.1000        52
    70.1200        50
    70.1400        40
    70.1600        46
    70.1800        34
    70.2000        48
    70.2200        54
    70.2400        56
    70.2600        62
    70.2800        48
    70.3000        58
    70.3200        62
    70.3400        52
    70.3600        34
    70.3800        52
    70.4000        48
    70.4200        54
    70.4400        52
    70.4600        60
    70.4800        38
    70.5000        48
    70.5200        56
    70.5400        54
    70.5600        50
    70.5800        44
    70.6000        38
    70.6200        58
    70.6400        54
    70.6600        50
    70.6800        52
    70.7000        42
    70.7200        28
    70.7400        48
    70.7600        36
    70.7800        48
    70.8000        44
    70.8200        50
    70.8400        40
    70.8600        74
    70.8800        44
    70.9000        36
    70.9200        56
    70.9400        58
    70.9600        54
    70.9800        42
    71.0000        62
    71.0200        42
    71.0400        48
    71.0600        38
    71.0800        38
    71.1000        50
    71.1200        54
    71.1400        48
    71.1600        50
    71.1800        54
    71.2000        54
    71.2200        56
    71.2400        54
    71.2600        56
    71.2800        34
    71.3000        62
    71.3200        52
    71.3400        54
    71.3600        60
    71.3800        42
    71.4000        48
    71.4200        50
    71.4400        50
    71.4600        48
    71.4800        46
    71.5000        42
    71.5200        50
    71.5400        48
    71.5600        38
    71.5800        48
    71.6000        50
    71.6200        52
    71.6400        40
    71.6600        48
    71.6800        42
    71.7000        48
    71.7200        64
    71.7400        60
    71.7600        48
    71.7800        46
    71.8000        44
    71.8200        50
    71.8400        46
    71.8600        52
    71.8800        56
    71.9000        40
    71.9200        50
    71.9400        44
    71.9600        50
    71.9800        44
    72.0000        54
    72.0200        62
    72.0400        40
    72.0600        52
    72.0800        50
    72.1000        36
    72.1200        52
    72.1400        38
    72.1600        32
    72.1800        54
    72.2000        52
    72.2200        38
    72.2400        46
    72.2600        58
    72.2800        46
    72.3000        40
    72.3200        42
    72.3400        36
    72.3600        46
    72.3800        50
    72.4000        42
    72.4200        56
    72.4400        48
    72.4600        54
    72.4800        48
    72.5000        48
    72.5200        38
    72.5400        50
    72.5600        48
    72.5800        42
    72.6000        40
    72.6200        40
    72.6400        52
    72.6600        58
    72.6800        68
    72.7000        48
    72.7200        48
    72.7400        66
    72.7600        52
    72.7800        56
    72.8000        48
    72.8200        42
    72.8400        52
    72.8600        64
    72.8800        60
    72.9000        70
    72.9200        70
    72.9400        70
    72.9600        86
    72.9800       114
    73.0000       178
    73.0200       208
    73.0400       246
    73.0600       254
    73.0800       204
    73.1000       138
    73.1200       128
    73.1400       106
    73.1600       100
    73.1800       116
    73.2000       124
    73.2200       188
    73.2400       174
    73.2600       150
    73.2800       108
    73.3000        84
    73.3200        72
    73.3400        62
    73.3600        62
    73.3800        66
    73.4000        40
    73.4200        40
    73.4400        58
    73.4600        40
    73.4800        56
    73.5000        54
    73.5200        44
    73.5400        36
    73.5600        44
    73.5800        52
    73.6000        70
    73.6200        40
    73.6400        52
    73.6600        46
    73.6800        50
    73.7000        48
    73.7200        44
    73.7400        44
    73.7600        36
    73.7800        54
    73.8000        50
    73.8200        44
    73.8400        38
    73.8600        42
    73.8800        54
    73.9000        50
    73.9200        36
    73.9400        56
    73.9600        54
    73.9800        44
    74.0000        46
    74.0200        50
    74.0400        66
    74.0600        42
    74.0800        52
    74.1000        36
    74.1200        46
    74.1400        50
    74.1600        54
    74.1800        38
    74.2000        56
    74.2200        38
    74.2400        48
    74.2600        36
    74.2800        44
    74.3000        40
    74.3200        44
    74.3400        60
    74.3600        66
    74.3800        50
    74.4000        44
    74.4200        38
    74.4400        44
    74.4600        50
    74.4800        40
    74.5000        62
    74.5200        42
    74.5400        34
    74.5600        62
    74.5800        52
    74.6000        42
    74.6200        44
    74.6400        44
    74.6600        54
    74.6800        54
    74.7000        44
    74.7200        44
    74.7400        34
    74.7600        48
    74.7800        54
    74.8000        50
    74.8200        42
    74.8400        42
    74.8600        30
    74.8800        42
    74.9000        40
    74.9200        42
    74.9400        40
    74.9600        46
    74.9800        56
    75.0000        46
    75.0200        50
    75.0400        50
    75.0600        46
    75.0800        34
    75.1000        42
    75.1200        56
    75.1400        54
    75.1600        46
    75.1800        48
    75.2000        48
    75.2200        66
    75.2400        50
    75.2600        50
    75.2800        44
    75.3000        48
    75.3200        40
    75.3400        34
    75.3600        52
    75.3800        40
    75.4000        48
    75.4200        58
    75.4400        46
    75.4600        46
    75.4800        36
    75.5000        46
    75.5200        56
    75.5400        44
    75.5600        42
    75.5800        56
    75.6000        38
    75.6200        32
    75.6400        52
    75.6600        48
    75.6800        46
    75.7000        48
    75.7200        38
    75.7400        48
    75.7600        48
    75.7800        50
    75.8000        58
    75.8200        52
    75.8400        40
    75.8600        38
    75.8800        52
    75.9000        52
    75.9200        56
    75.9400        50
    75.9600        56
    75.9800        58
    76.0000        48
    76.0200        50
    76.0400        68
    76.0600        52
    76.0800        56
    76.1000        58
    76.1200        56
    76.1400        76
    76.1600        58
    76.1800        66
    76.2000        94
    76.2200       110
    76.2400       148
    76.2600       206
    76.2800       236
    76.3000       256
    76.3200       260
    76.3400       166
    76.3600       128
    76.3800       128
    76.4000        94
    76.4200       104
    76.4400       126
    76.4600       132
    76.4800       170
    76.5000       162
    76.5200       110
    76.5400       116
    76.5600        78
    76.5800        66
    76.6000        62
    76.6200        58
    76.6400        52
    76.6600        56
    76.6800        54
    76.7000        58
    76.7200        54
    76.7400        54
    76.7600        54
    76.7800        40
    76.8000        56
    76.8200        54
    76.8400        46
    76.8600        54
    76.8800        46
    76.9000        42
    76.9200        46
    76.9400        38
    76.9600        44
    76.9800        44
    77.0000        38
    77.0200        46
    77.0400        48
    77.0600        44
    77.0800        44
    77.1000        54
    77.1200        48
    77.1400        40
    77.1600        50
    77.1800        54
    77.2000        46
    77.2200        52
    77.2400        42
    77.2600        52
    77.2800        50
    77.3000        50
    77.3200        58
    77.3400        42
    77.3600        48
    77.3800        44
    77.4000        48
    77.4200        54
    77.4400        46
    77.4600        42
    77.4800        46
    77.5000        46
    77.5200        46
    77.5400        50
    77.5600        46
    77.5800        48
    77.6000        48
    77.6200        52
    77.6400        44
    77.6600        46
    77.6800        36
    77.7000        42
    77.7200        52
    77.7400        46
    77.7600        50
    77.7800        46
    77.8000        54
    77.8200        38
    77.8400        52
    77.8600        34
    77.8800        44
    77.9000        38
    77.9200        34
    77.9400        48
    77.9600        44
    77.9800        50
    78.0000        46
    78.0200        48
    78.0400        52
    78.0600        46
    78.0800        44
    78.1000        42
    78.1200        42
    78.1400        48
    78.1600        38
    78.1800        44
    78.2000        46
    78.2200        48
    78.2400        38
    78.2600        44
    78.2800        48
    78.3000        46
    78.3200        48
    78.3400        54
    78.3600        60
    78.3800        42
    78.4000        50
    78.4200        36
    78.4400        42
    78.4600        52
    78.4800        38
    78.5000        40
    78.5200        50
    78.5400        50
    78.5600        46
    78.5800        38
    78.6000        44
    78.6200        62
    78.6400        42
    78.6600        40
    78.6800        40
    78.7000        38
    78.7200        42
    78.7400        50
    78.7600        44
    78.7800        52
    78.8000        54
    78.8200        46
    78.8400        54
    78.8600        32
    78.8800        44
    78.9000        52
    78.9200        44
    78.9400        44
    78.9600        56
    78.9800        50
    79.0000        40
    79.0200        36
    79.0400        40
    79.0600        44
    79.0800        42
    79.1000        42
    79.1200        56
    79.1400        50
    79.1600        48
    79.1800        48
    79.2000        52
    79.2200        46
    79.2400        58
    79.2600        50
    79.2800        44
    79.3000        56
    79.3200        60
    79.3400        42
    79.3600        44
    79.3800        44
    79.4000        54
    79.4200        34
    79.4400        44
    79.4600        52
    79.4800        46
    79.5000        52
    79.5200        42
    79.5400        52
    79.5600        48
    79.5800        44
    79.6000        48
    79.6200        38
    79.6400        50
    79.6600        42
    79.6800        44
    79.7000        34
    79.7200        32
    79.7400        50
    79.7600        54
    79.7800        42
    79.8000        46
    79.8200        40
    79.8400        36
    79.8600        50
    79.8800        38
    79.9000        40
    79.9200        54
    79.9400        40
    79.9600        54
    79.9800        40
    80.0000        48
